{
  "resourceType": "Composition",
  "contained": [
    {
      "resourceType": "Patient",
      "id": "1",
      "name": [
        {
          "use": "official",
          "family": "PAULUS WISNU ADITYA BASWORO"
        },
        {
          "use": "official",
          "family": "BASWORO<<PAULUS<WISNU<ADITYA"
        }
      ],
      "birthDate": "1988-05-15"
    },
    {
      "resourceType": "Immunization",
      "id": "2",
      "extension": [
        {
          "url": "https://WorldHealthOrganization.github.io/ddcc/StructureDefinition/DDCCVaccineBrand",
          "valueCoding": {
            "system": "https://www.ema.europa.eu/en/medicines/human/EPAR/comirnaty"
          }
        },
        {
          "url": "https://WorldHealthOrganization.github.io/ddcc/StructureDefinition/DDCCCountryOfVaccination",
          "valueCoding": {
            "system": "urn:iso:std:iso:3166",
            "code": "ID"
          }
        }
      ],
      "identifier": [
        {
          "value": "URN:UVCI:01:ID:672865692"
        }
      ],
      "vaccineCode": {
        "coding": [
          {
            "system": "http://snomed.info/sct"
          }
        ]
      },
      "patient": {
        "reference": "#1"
      },
      "occurrenceDateTime": "2022-03-05",
      "protocolApplied": [
        {
          "authority": {
            "reference": "#3"
          },
          "targetDisease": [
            {
              "coding": [
                {
                  "system": "http://snomed.info/sct",
                  "code": "840539006"
                }
              ]
            }
          ],
          "doseNumberPositiveInt": 3,
          "seriesDosesPositiveInt": 3
        }
      ]
    },
    {
      "resourceType": "Organization",
      "id": "3",
      "identifier": [
        {
          "value": "Indonesia"
        }
      ]
    }
  ],
  "type": {
    "coding": [
      {
        "system": "http://loinc.org",
        "code": "82593-5",
        "display": "Immunization summary report"
      }
    ]
  },
  "category": [
    {
      "coding": [
        {
          "code": "ddcc-vs"
        }
      ]
    }
  ],
  "subject": {
    "reference": "#1"
  },
  "author": [
    {
      "reference": "#3"
    }
  ],
  "title": "International Certificate of Vaccination or Prophylaxis",
  "event": [
    {
      "period": {
        "start": "2022-07-14",
        "end": "2023-07-14"
      }
    }
  ],
  "section": [
    {
      "code": {
        "coding": [
          {
            "system": "http://loinc.org",
            "code": "11369-6",
            "display": "History of Immunization Narrative"
          }
        ]
      },
      "author": [
        {
          "reference": "#3"
        }
      ],
      "entry": [
        {
          "reference": "#2"
        }
      ]
    }
  ]
}