{
  "resourceType": "Composition",
  "id": "US111222333444555666",
  "contained": [
    {
      "resourceType": "Patient",
      "id": "1",
      "identifier": [
        {
          "value": "1234567890"
        }
      ],
      "name": [
        {
          "text": "Eddie Murphy"
        }
      ],
      "gender": "male",
      "birthDate": "1986-09-19"
    },
    {
      "resourceType": "Immunization",
      "id": "2",
      "extension": [
        {
          "url": "https://WorldHealthOrganization.github.io/ddcc/StructureDefinition/DDCCVaccineBrand",
          "valueCoding": {
            "system": "http://worldhealthorganization.github.io/ddcc/CodeSystem/DDCC-Example-Test-CodeSystem",
            "code": "TEST"
          }
        },
        {
          "url": "https://WorldHealthOrganization.github.io/ddcc/StructureDefinition/DDCCVaccineMarketAuthorization",
          "valueCoding": {
            "system": "http://worldhealthorganization.github.io/ddcc/CodeSystem/DDCC-Example-Test-CodeSystem",
            "code": "TEST"
          }
        },
        {
          "url": "https://WorldHealthOrganization.github.io/ddcc/StructureDefinition/DDCCCountryOfVaccination",
          "valueCoding": {
            "system": "urn:iso:std:iso:3166",
            "code": "USA"
          }
        },
        {
          "url": "https://WorldHealthOrganization.github.io/ddcc/StructureDefinition/DDCCVaccineValidFrom",
          "valueDateTime": "2021-07-22"
        }
      ],
      "vaccineCode": {
        "coding": [
          {
            "system": "http://snomed.info/sct",
            "code": "1119349007"
          }
        ]
      },
      "patient": {
        "identifier": {
          "value": "1234567890"
        }
      },
      "occurrenceDateTime": "2021-07-08",
      "location": {
        "display": "Vaccination Site"
      },
      "manufacturer": {
        "identifier": {
          "system": "http://worldhealthorganization.github.io/ddcc/CodeSystem/DDCC-Example-Test-CodeSystem",
          "value": "TEST"
        }
      },
      "lotNumber": "PT123F",
      "performer": [
        {
          "actor": {
            "reference": "#4"
          }
        }
      ],
      "protocolApplied": [
        {
          "authority": {
            "reference": "#5"
          },
          "targetDisease": [
            {
              "coding": [
                {
                  "system": "http://snomed.info/sct",
                  "code": "840539006"
                }
              ]
            }
          ],
          "doseNumberPositiveInt": 1,
          "seriesDosesPositiveInt": 2
        }
      ]
    },
    {
      "resourceType": "ImmunizationRecommendation",
      "id": "3",
      "patient": {
        "identifier": {
          "value": "1234567890"
        }
      },
      "recommendation": [
        {
          "vaccineCode": [
            {
              "coding": [
                {
                  "system": "http://snomed.info/sct",
                  "code": "1119349007"
                }
              ]
            }
          ],
          "targetDisease": {
            "coding": [
              {
                "system": "http://snomed.info/sct",
                "code": "840539006"
              }
            ]
          },
          "forecastStatus": {
            "coding": [
              {
                "system": "http://terminology.hl7.org/2.1.0/CodeSystem-immunization-recommendation-status.html",
                "code": "due"
              }
            ]
          },
          "dateCriterion": [
            {
              "code": {
                "coding": [
                  {
                    "system": "http://loinc.org",
                    "code": "30980-7",
                    "display": "Date vaccine due"
                  }
                ]
              },
              "value": "2021-07-29"
            }
          ],
          "doseNumberPositiveInt": 2,
          "seriesDosesPositiveInt": 2
        }
      ]
    },
    {
      "resourceType": "Practitioner",
      "id": "4",
      "identifier": [
        {
          "value": "http://www.acme.org/practitioners/23"
        }
      ]
    },
    {
      "resourceType": "Organization",
      "id": "5",
      "identifier": [
        {
          "value": "wA69g8VD512TfTTdkTNSsG"
        }
      ]
    }
  ],
  "type": {
    "coding": [
      {
        "system": "http://loinc.org",
        "code": "82593-5",
        "display": "Immunization summary report"
      }
    ]
  },
  "category": [
    {
      "coding": [
        {
          "code": "ddcc-vs"
        }
      ]
    }
  ],
  "subject": {
    "reference": "#1"
  },
  "author": [
    {
      "reference": "#5"
    }
  ],
  "title": "International Certificate of Vaccination or Prophylaxis",
  "event": [
    {
      "period": {
        "start": "2021-07-08",
        "end": "2022-07-08"
      }
    }
  ],
  "section": [
    {
      "code": {
        "coding": [
          {
            "system": "http://loinc.org",
            "code": "11369-6",
            "display": "History of Immunization Narrative"
          }
        ]
      },
      "author": [
        {
          "reference": "#5"
        }
      ],
      "focus": {
        "reference": "#2"
      },
      "entry": [
        {
          "reference": "#2"
        },
        {
          "reference": "#3"
        }
      ]
    }
  ]
}