{
  "resourceType": "Bundle",
  "type": "transaction",
  "entry": [ {
    "resource": {
      "resourceType": "Composition",
      "identifier": {
        "value": "39791185041847"
      },
      "type": {
        "coding": [ {
          "system": "http://loinc.org",
          "code": "82593-5",
          "display": "Immunization summary report"
        } ]
      },
      "category": [ {
        "coding": [ {
          "code": "ddcc-vs"
        } ]
      } ],
      "subject": {
        "reference": "Patient/43293785-70d2-4cbe-8ecf-30b947fd45d5"
      },
      "author": [ {
        "reference": "Organization/969e8fbe-52b8-425f-8c4c-bbd6f7aa886f"
      } ],
      "title": "International Certificate of Vaccination or Prophylaxis",
      "event": [ {
        "period": {
          "start": "2021-03-03T04:28:46.012Z"
        }
      } ],
      "section": [ {
        "code": {
          "coding": [ {
            "system": "http://loinc.org",
            "code": "11369-6",
            "display": "History of Immunization Narrative"
          } ]
        },
        "author": [ {
          "reference": "Organization/969e8fbe-52b8-425f-8c4c-bbd6f7aa886f"
        } ],
        "entry": [ {
          "reference": "Immunization/a9152ef1-efdd-4e3e-b8c3-d02153afc059"
        } ]
      } ]
    }
  }, {
    "resource": {
      "resourceType": "Patient",
      "id": "43293785-70d2-4cbe-8ecf-30b947fd45d5",
      "identifier": [ {
        "value": "did:Passport:Dummy256"
      } ],
      "name": [ {
        "text": "Third March User One"
      } ],
      "address": [ {
        "district": "Chamba",
        "state": "Himachal",
        "postalCode": "176207",
        "country": "IN"
      } ]
    }
  }, {
    "resource": {
      "resourceType": "Immunization",
      "id": "a9152ef1-efdd-4e3e-b8c3-d02153afc059",
      "extension": [ {
        "url": "https://WorldHealthOrganization.github.io/ddcc/StructureDefinition/DDCCVaccineBrand",
        "valueCoding": {
          "display": "COVISHIELD"
        }
      }, {
        "url": "https://WorldHealthOrganization.github.io/ddcc/StructureDefinition/DDCCCountryOfVaccination",
        "valueCoding": {
          "system": "urn:iso:std:iso:3166",
          "code": "IN"
        }
      }, {
        "url": "https://WorldHealthOrganization.github.io/ddcc/StructureDefinition/DDCCVaccineValidFrom",
        "valueDateTime": "2021-03-03"
      } ],
      "identifier": [ {
        "value": "92047670169"
      } ],
      "patient": {
        "reference": "Patient/43293785-70d2-4cbe-8ecf-30b947fd45d5"
      },
      "occurrenceDateTime": "2021-03-03T04:28:43.134Z",
      "location": {
        "reference": "Location/04db279a-ba4d-472d-b93e-3e725f3ecbea"
      },
      "manufacturer": {
        "reference": "Organization/969e8fbe-52b8-425f-8c4c-bbd6f7aa886f"
      },
      "lotNumber": "Dummy-TGN-Chamba",
      "performer": [ {
        "actor": {
          "reference": "Practitioner/7c967bcb-abc6-4cb6-b590-7b5827d9aae3"
        }
      } ],
      "protocolApplied": [ {
        "authority": {
          "reference": "Organization/969e8fbe-52b8-425f-8c4c-bbd6f7aa886f"
        },
        "targetDisease": [ {
          "coding": [ {
            "system": "http://snomed.info/sct",
            "code": "840539006"
          } ]
        } ],
        "doseNumberPositiveInt": 1,
        "seriesDosesPositiveInt": 2
      } ]
    }
  }, {
    "resource": {
      "resourceType": "Organization",
      "id": "d9b35e76-f553-4a18-9254-3372d9ea8c73",
      "name": "Serum Institute of India"
    }
  }, {
    "resource": {
      "resourceType": "Practitioner",
      "id": "7c967bcb-abc6-4cb6-b590-7b5827d9aae3",
      "name": [ {
        "text": "Dummy Vaccinator"
      } ]
    }
  }, {
    "resource": {
      "resourceType": "Location",
      "id": "04db279a-ba4d-472d-b93e-3e725f3ecbea",
      "name": "Himachal Site Name 176207",
      "address": {
        "line": [ "Address Of Site 176207" ],
        "district": "Chamba",
        "state": "Himachal",
        "country": "IN"
      }
    }
  } ]
}