{
  "resourceType": "Bundle",
  "type": "transaction",
  "entry": [
    {
      "resource": {
        "resourceType": "Composition",
        "identifier": {
          "value": "60c7ed1bdea6b4c394e87837"
        },
        "type": {
          "coding": [
            {
              "system": "http://loinc.org",
              "code": "82593-5",
              "display": "Immunization summary report"
            }
          ]
        },
        "category": [
          {
            "coding": [
              {
                "code": "ddcc-vs"
              }
            ]
          }
        ],
        "subject": {
          "reference": "Patient/43293785-70d2-4cbe-8ecf-30b947fd45d5"
        },
        "author": [
          {
            "reference": "Organization/969e8fbe-52b8-425f-8c4c-bbd6f7aa886f"
          }
        ],
        "title": "International Certificate of Vaccination or Prophylaxis",
        "event": [
          {
            "period": {
              "start": "2022-07-14T10:45:55.935Z"
            }
          }
        ],
        "section": [
          {
            "code": {
              "coding": [
                {
                  "system": "http://loinc.org",
                  "code": "11369-6",
                  "display": "History of Immunization Narrative"
                }
              ]
            },
            "author": [
              {
                "reference": "Organization/969e8fbe-52b8-425f-8c4c-bbd6f7aa886f"
              }
            ],
            "entry": [
              {
                "reference": "Immunization/a9152ef1-efdd-4e3e-b8c3-d02153afc059"
              }
            ]
          }
        ]
      }
    },
    {
      "resource": {
        "resourceType": "Patient",
        "id": "43293785-70d2-4cbe-8ecf-30b947fd45d5",
        "identifier": [
          {
            "value": "did:indonesia:3174081505880004"
          }
        ],
        "name": [
          {
            "text": "PAULUS WISNU ADITYA BASWORO"
          }
        ],
        "birthDate": "1988",
        "address": [
          {
            "line": [
              "DUREN TIGA RT 9, RW 1, KEL. DUREN TIGA, KEC. PANCORAN, JAKARTA SELATAN"
            ],
            "district": "-",
            "state": "-",
            "postalCode": "-",
            "country": "-"
          }
        ]
      }
    },
    {
      "resource": {
        "resourceType": "Immunization",
        "id": "a9152ef1-efdd-4e3e-b8c3-d02153afc059",
        "extension": [
          {
            "url": "https://WorldHealthOrganization.github.io/ddcc/StructureDefinition/DDCCVaccineBrand",
            "valueCoding": {
              "display": "COVID-19 Vaccine Pfizer"
            }
          },
          {
            "url": "https://WorldHealthOrganization.github.io/ddcc/StructureDefinition/DDCCCountryOfVaccination",
            "valueCoding": {
              "system": "urn:iso:std:iso:3166",
              "code": "IDN"
            }
          },
          {
            "url": "https://WorldHealthOrganization.github.io/ddcc/StructureDefinition/DDCCVaccineValidFrom",
            "valueDateTime": "2022-03-05"
          }
        ],
        "identifier": [
          {
            "value": "531487494"
          }
        ],
        "vaccineCode": {
          "coding": [
            {
              "system": "http://hl7.org/fhir/sid/icd-11"
            }
          ]
        },
        "patient": {
          "reference": "Patient/43293785-70d2-4cbe-8ecf-30b947fd45d5"
        },
        "occurrenceDateTime": "2022-03-05T00:00:00.000Z",
        "location": {
          "reference": "Location/04db279a-ba4d-472d-b93e-3e725f3ecbea"
        },
        "manufacturer": {
          "reference": "Organization/969e8fbe-52b8-425f-8c4c-bbd6f7aa886f"
        },
        "lotNumber": "350208D",
        "performer": [
          {
            "actor": {
              "reference": "Practitioner/7c967bcb-abc6-4cb6-b590-7b5827d9aae3"
            }
          }
        ],
        "protocolApplied": [
          {
            "authority": {
              "reference": "Organization/969e8fbe-52b8-425f-8c4c-bbd6f7aa886f"
            },
            "targetDisease": [
              {
                "coding": [
                  {
                    "system": "http://snomed.info/sct",
                    "code": "840539006"
                  }
                ]
              }
            ],
            "doseNumberPositiveInt": 3,
            "seriesDosesPositiveInt": 3
          }
        ]
      }
    },
    {
      "resource": {
        "resourceType": "Organization",
        "id": "d9b35e76-f553-4a18-9254-3372d9ea8c73",
        "name": "-"
      }
    },
    {
      "resource": {
        "resourceType": "Practitioner",
        "id": "7c967bcb-abc6-4cb6-b590-7b5827d9aae3",
        "name": [
          {
            "text": "-"
          }
        ]
      }
    },
    {
      "resource": {
        "resourceType": "Location",
        "id": "04db279a-ba4d-472d-b93e-3e725f3ecbea",
        "name": "Puskesmas Menteng",
        "address": {
          "district": "-",
          "state": "-",
          "postalCode": "-",
          "country": "IDN"
        }
      }
    }
  ]
}