{
  "resourceType": "Bundle",
  "type": "transaction",
  "entry": [ {
    "resource": {
      "resourceType": "Composition",
      "type": {
        "coding": [ {
          "system": "http://loinc.org",
          "code": "82593-5",
          "display": "Immunization summary report"
        } ]
      },
      "category": [ {
        "coding": [ {
          "code": "ddcc-vs"
        } ]
      } ],
      "subject": {
        "reference": "Patient/43293785-70d2-4cbe-8ecf-30b947fd45d5"
      },
      "author": [ {
        "reference": "Organization/969e8fbe-52b8-425f-8c4c-bbd6f7aa886f"
      } ],
      "title": "International Certificate of Vaccination or Prophylaxis",
      "event": [ {
        "period": {
          "start": "2021-10-29"
        }
      } ],
      "section": [ {
        "code": {
          "coding": [ {
            "system": "http://loinc.org",
            "code": "11369-6",
            "display": "History of Immunization Narrative"
          } ]
        },
        "author": [ {
          "reference": "Organization/969e8fbe-52b8-425f-8c4c-bbd6f7aa886f"
        } ],
        "entry": [ {
          "reference": "Immunization/a9152ef1-efdd-4e3e-b8c3-d02153afc059"
        } ]
      } ]
    }
  }, {
    "resource": {
      "resourceType": "Patient",
      "id": "43293785-70d2-4cbe-8ecf-30b947fd45d5",
      "name": [ {
        "use": "official",
        "family": "2",
        "given": [ "1" ]
      }, {
        "use": "official",
        "family": "DDFFDF",
        "given": [ "DFDFDFD" ]
      } ],
      "birthDate": "1990"
    }
  }, {
    "resource": {
      "resourceType": "Immunization",
      "id": "a9152ef1-efdd-4e3e-b8c3-d02153afc059",
      "extension": [ {
        "url": "https://WorldHealthOrganization.github.io/ddcc/StructureDefinition/DDCCVaccineBrand",
        "valueCoding": {
          "system": "https://www.ema.europa.eu/en/medicines/human/EPAR/comirnaty",
          "code": "EU/1/20/1525"
        }
      }, {
        "url": "https://WorldHealthOrganization.github.io/ddcc/StructureDefinition/DDCCVaccineMarketAuthorization",
        "valueCoding": {
          "system": "https://www.ema.europa.eu/en/medicines/human/EPAR/comirnaty",
          "code": "ORG-100010771"
        }
      }, {
        "url": "https://WorldHealthOrganization.github.io/ddcc/StructureDefinition/DDCCCountryOfVaccination",
        "valueCoding": {
          "system": "urn:iso:std:iso:3166",
          "code": "DE"
        }
      } ],
      "identifier": [ {
        "value": "URN:UVCI:V1:UY:4EWIJF1LLSD91KX78OUVO02TD:57"
      } ],
      "vaccineCode": {
        "coding": [ {
          "system": "http://snomed.info/sct",
          "code": "1119349007"
        } ]
      },
      "patient": {
        "reference": "Patient/43293785-70d2-4cbe-8ecf-30b947fd45d5"
      },
      "occurrenceDateTime": "2021-10-29",
      "protocolApplied": [ {
        "authority": {
          "reference": "Organization/969e8fbe-52b8-425f-8c4c-bbd6f7aa886f"
        },
        "targetDisease": [ {
          "coding": [ {
            "system": "http://snomed.info/sct",
            "code": "840539006"
          } ]
        } ],
        "doseNumberPositiveInt": 1,
        "seriesDosesPositiveInt": 1
      } ]
    }
  }, {
    "resource": {
      "resourceType": "Organization",
      "id": "969e8fbe-52b8-425f-8c4c-bbd6f7aa886f",
      "name": "Selmade"
    }
  } ]
}