{
  "resourceType": "Bundle",
  "type": "transaction",
  "entry": [ {
    "resource": {
      "resourceType": "Composition",
      "identifier": {
        "value": "VB0009990012"
      },
      "type": {
        "coding": [ {
          "system": "http://loinc.org",
          "code": "82593-5",
          "display": "Immunization summary report"
        } ]
      },
      "category": [ {
        "coding": [ {
          "code": "ddcc-vs"
        } ]
      } ],
      "subject": {
        "reference": "Patient/43293785-70d2-4cbe-8ecf-30b947fd45d5"
      },
      "author": [ {
        "reference": "Organization/969e8fbe-52b8-425f-8c4c-bbd6f7aa886f"
      } ],
      "title": "International Certificate of Vaccination or Prophylaxis",
      "section": [ {
        "code": {
          "coding": [ {
            "system": "http://loinc.org",
            "code": "11369-6",
            "display": "History of Immunization Narrative"
          } ]
        },
        "author": [ {
          "reference": "Organization/969e8fbe-52b8-425f-8c4c-bbd6f7aa886f"
        } ],
        "entry": [ {
          "reference": "Immunization/a9152ef1-efdd-4e3e-b8c3-d02153afc059"
        } ]
      } ]
    }
  }, {
    "resource": {
      "resourceType": "Patient",
      "id": "43293785-70d2-4cbe-8ecf-30b947fd45d5",
      "identifier": [ {
        "value": "PA0941262"
      } ],
      "name": [ {
        "text": "CITIZEN  JANE SUE"
      } ],
      "gender": "female",
      "birthDate": "1961-05-15"
    }
  }, {
    "resource": {
      "resourceType": "Immunization",
      "id": "a9152ef1-efdd-4e3e-b8c3-d02153afc059",
      "extension": [ {
        "url": "https://WorldHealthOrganization.github.io/ddcc/StructureDefinition/DDCCVaccineBrand",
        "valueCoding": {
          "code": "AstraZeneca Vaxzevria"
        }
      }, {
        "url": "https://WorldHealthOrganization.github.io/ddcc/StructureDefinition/DDCCCountryOfVaccination",
        "valueCoding": {
          "system": "urn:iso:std:iso:3166",
          "code": "AUS"
        }
      } ],
      "vaccineCode": {
        "coding": [ {
          "system": "http://hl7.org/fhir/sid/icd-11",
          "code": "XM68M6"
        } ]
      },
      "patient": {
        "reference": "Patient/43293785-70d2-4cbe-8ecf-30b947fd45d5"
      },
      "occurrenceString": "2021-09-15",
      "lotNumber": "300157P",
      "protocolApplied": [ {
        "authority": {
          "reference": "Organization/969e8fbe-52b8-425f-8c4c-bbd6f7aa886f"
        },
        "targetDisease": [ {
          "coding": [ {
            "system": "http://hl7.org/fhir/sid/icd-11",
            "code": "RA01.0"
          } ]
        } ]
      } ]
    }
  }, {
    "resource": {
      "resourceType": "Organization",
      "id": "969e8fbe-52b8-425f-8c4c-bbd6f7aa886f",
      "name": "General Practitioner"
    }
  } ]
}