{
  "resourceType": "Bundle",
  "type": "transaction",
  "entry": [
    {
      "resource": {
        "resourceType": "Composition",
        "identifier": {
          "value": "FKQLW4W1"
        },
        "type": {
          "coding": [
            {
              "system": "http://loinc.org",
              "code": "82593-5",
              "display": "Immunization summary report"
            }
          ]
        },
        "category": [
          {
            "coding": [
              {
                "code": "ddcc-vs"
              }
            ]
          }
        ],
        "subject": {
          "reference": "Patient/43293785-70d2-4cbe-8ecf-30b947fd45d5"
        },
        "author": [
          {
            "reference": "Organization/969e8fbe-52b8-425f-8c4c-bbd6f7aa886f"
          },
          {
            "reference": "Organization/7c967bcb-abc6-4cb6-b590-7b5827d9aae3"
          },
          {
            "reference": "Organization/450c6c0b-cdc4-46e7-8cbd-2ef878d3c9da"
          }
        ],
        "title": "International Certificate of Vaccination or Prophylaxis",
        "section": [
          {
            "code": {
              "coding": [
                {
                  "system": "http://loinc.org",
                  "code": "11369-6",
                  "display": "History of Immunization Narrative"
                }
              ]
            },
            "author": [
              {
                "reference": "Organization/969e8fbe-52b8-425f-8c4c-bbd6f7aa886f"
              },
              {
                "reference": "Organization/7c967bcb-abc6-4cb6-b590-7b5827d9aae3"
              },
              {
                "reference": "Organization/450c6c0b-cdc4-46e7-8cbd-2ef878d3c9da"
              }
            ],
            "entry": [
              {
                "reference": "Immunization/a9152ef1-efdd-4e3e-b8c3-d02153afc059"
              },
              {
                "reference": "Immunization/d9b35e76-f553-4a18-9254-3372d9ea8c73"
              },
              {
                "reference": "Immunization/04db279a-ba4d-472d-b93e-3e725f3ecbea"
              }
            ]
          }
        ]
      }
    },
    {
      "resource": {
        "resourceType": "Patient",
        "id": "43293785-70d2-4cbe-8ecf-30b947fd45d5",
        "identifier": [
          {
            "value": "TR0000000"
          },
          {
            "value": "JPN00000120220607000001"
          }
        ],
        "name": [
          {
            "text": "NIHON HANAKO"
          }
        ],
        "birthDate": "1991-12-01"
      }
    },
    {
      "resource": {
        "resourceType": "Immunization",
        "id": "a9152ef1-efdd-4e3e-b8c3-d02153afc059",
        "extension": [
          {
            "url": "https://WorldHealthOrganization.github.io/ddcc/StructureDefinition/DDCCVaccineBrand",
            "valueCoding": {
              "code": "COMIRNATY"
            }
          },
          {
            "url": "https://WorldHealthOrganization.github.io/ddcc/StructureDefinition/DDCCCountryOfVaccination",
            "valueCoding": {
              "system": "urn:iso:std:iso:3166",
              "code": "JPN"
            }
          }
        ],
        "vaccineCode": {
          "coding": [
            {
              "system": "http://hl7.org/fhir/sid/icd-11",
              "code": "XM0GQ8"
            }
          ]
        },
        "patient": {
          "reference": "Patient/43293785-70d2-4cbe-8ecf-30b947fd45d5"
        },
        "occurrenceDateTime": "2021-06-01",
        "lotNumber": "FJ5929",
        "protocolApplied": [
          {
            "authority": {
              "reference": "Organization/969e8fbe-52b8-425f-8c4c-bbd6f7aa886f"
            },
            "targetDisease": [
              {
                "coding": [
                  {
                    "system": "http://hl7.org/fhir/sid/icd-11",
                    "code": "RA01.0"
                  }
                ]
              }
            ],
            "doseNumberPositiveInt": 1
          }
        ]
      }
    },
    {
      "resource": {
        "resourceType": "Organization",
        "id": "969e8fbe-52b8-425f-8c4c-bbd6f7aa886f",
        "name": "MHLW_Gov_of_JAPAN"
      }
    },
    {
      "resource": {
        "resourceType": "Immunization",
        "id": "d9b35e76-f553-4a18-9254-3372d9ea8c73",
        "extension": [
          {
            "url": "https://WorldHealthOrganization.github.io/ddcc/StructureDefinition/DDCCVaccineBrand",
            "valueCoding": {
              "code": "Spikevax"
            }
          },
          {
            "url": "https://WorldHealthOrganization.github.io/ddcc/StructureDefinition/DDCCCountryOfVaccination",
            "valueCoding": {
              "system": "urn:iso:std:iso:3166",
              "code": "JPN"
            }
          }
        ],
        "vaccineCode": {
          "coding": [
            {
              "system": "http://hl7.org/fhir/sid/icd-11",
              "code": "XM0GQ8"
            }
          ]
        },
        "patient": {
          "reference": "Patient/43293785-70d2-4cbe-8ecf-30b947fd45d5"
        },
        "occurrenceDateTime": "2021-06-22",
        "lotNumber": "000221A",
        "protocolApplied": [
          {
            "authority": {
              "reference": "Organization/7c967bcb-abc6-4cb6-b590-7b5827d9aae3"
            },
            "targetDisease": [
              {
                "coding": [
                  {
                    "system": "http://hl7.org/fhir/sid/icd-11",
                    "code": "RA01.0"
                  }
                ]
              }
            ],
            "doseNumberPositiveInt": 2
          }
        ]
      }
    },
    {
      "resource": {
        "resourceType": "Organization",
        "id": "7c967bcb-abc6-4cb6-b590-7b5827d9aae3",
        "name": "MHLW_Gov_of_JAPAN"
      }
    },
    {
      "resource": {
        "resourceType": "Immunization",
        "id": "04db279a-ba4d-472d-b93e-3e725f3ecbea",
        "extension": [
          {
            "url": "https://WorldHealthOrganization.github.io/ddcc/StructureDefinition/DDCCVaccineBrand",
            "valueCoding": {
              "code": "Vaxzevria"
            }
          },
          {
            "url": "https://WorldHealthOrganization.github.io/ddcc/StructureDefinition/DDCCCountryOfVaccination",
            "valueCoding": {
              "system": "urn:iso:std:iso:3166",
              "code": "JPN"
            }
          }
        ],
        "vaccineCode": {
          "coding": [
            {
              "system": "http://hl7.org/fhir/sid/icd-11",
              "code": "XM9QW8"
            }
          ]
        },
        "patient": {
          "reference": "Patient/43293785-70d2-4cbe-8ecf-30b947fd45d5"
        },
        "occurrenceDateTime": "2021-12-24",
        "lotNumber": "N040A",
        "protocolApplied": [
          {
            "authority": {
              "reference": "Organization/450c6c0b-cdc4-46e7-8cbd-2ef878d3c9da"
            },
            "targetDisease": [
              {
                "coding": [
                  {
                    "system": "http://hl7.org/fhir/sid/icd-11",
                    "code": "RA01.0"
                  }
                ]
              }
            ],
            "doseNumberPositiveInt": 3
          }
        ]
      }
    },
    {
      "resource": {
        "resourceType": "Organization",
        "id": "450c6c0b-cdc4-46e7-8cbd-2ef878d3c9da",
        "name": "MHLW_Gov_of_JAPAN"
      }
    }
  ]
}