{
  "resourceType": "Bundle",
  "type": "transaction",
  "entry": [ {
    "resource": {
      "resourceType": "Composition",
      "type": {
        "coding": [ {
          "system": "http://loinc.org",
          "code": "82593-5",
          "display": "Immunization summary report"
        } ]
      },
      "category": [ {
        "coding": [ {
          "code": "ddcc-vs"
        } ]
      } ],
      "subject": {
        "reference": "Patient/resource:0"
      },
      "author": [ {
        "reference": "Organization/43293785-70d2-4cbe-8ecf-30b947fd45d5"
      } ],
      "title": "International Certificate of Vaccination or Prophylaxis",
      "event": [ {
        "period": {
          "start": "2021-06-01"
        }
      } ],
      "section": [ {
        "code": {
          "coding": [ {
            "system": "http://loinc.org",
            "code": "11369-6",
            "display": "History of Immunization Narrative"
          } ]
        },
        "author": [ {
          "reference": "Organization/43293785-70d2-4cbe-8ecf-30b947fd45d5"
        } ],
        "entry": [ {
          "reference": "Immunization/resource:1"
        }, {
          "reference": "Immunization/resource:2"
        } ]
      } ]
    }
  }, {
    "resource": {
      "resourceType": "Organization",
      "id": "43293785-70d2-4cbe-8ecf-30b947fd45d5",
      "identifier": [ {
        "value": "https://spec.smarthealth.cards/examples/issuer"
      } ]
    }
  }, {
    "resource": {
      "resourceType": "Patient",
      "id": "resource:0",
      "name": [ {
        "family": "Anyperson",
        "given": [ "John", "B." ]
      } ],
      "birthDate": "1951-01-20"
    }
  }, {
    "resource": {
      "resourceType": "Immunization",
      "id": "resource:1",
      "status": "completed",
      "vaccineCode": {
        "coding": [ {
          "system": "http://hl7.org/fhir/sid/cvx",
          "code": "207"
        } ]
      },
      "patient": {
        "reference": "Patient/resource:0"
      },
      "occurrenceDateTime": "2021-01-01",
      "lotNumber": "0000001",
      "performer": [ {
        "actor": {
          "display": "ABC General Hospital"
        }
      } ]
    }
  }, {
    "resource": {
      "resourceType": "Immunization",
      "id": "resource:2",
      "status": "completed",
      "vaccineCode": {
        "coding": [ {
          "system": "http://hl7.org/fhir/sid/cvx",
          "code": "207"
        } ]
      },
      "patient": {
        "reference": "Patient/resource:0"
      },
      "occurrenceDateTime": "2021-01-29",
      "lotNumber": "0000007",
      "performer": [ {
        "actor": {
          "display": "ABC General Hospital"
        }
      } ]
    }
  } ]
}